PRZ Layer MV of Element W
Depth (nm)	Intensity	Intensity Absorbed
0	1.36188	1.35725
0.553304	1.75878	1.75091
1.10661	1.93913	1.92744
1.65991	2.0693	2.05335
2.21322	2.16575	2.14526
2.76652	2.26128	2.23583
3.31982	2.30735	2.27708
3.87313	2.35423	2.31893
4.42643	2.40582	2.36519
4.97974	2.44824	2.40215
5.53304	2.50222	2.4503
6.08635	2.52957	2.4722
6.63965	2.59369	2.52984
7.19295	2.61442	2.54507
7.74626	2.65944	2.58379
8.29956	2.67737	2.59601
8.85287	2.71296	2.62527
9.40617	2.74419	2.65025
9.95947	2.79994	2.69875
10.5128	2.78246	2.67657
11.0661	2.82618	2.71327
11.6194	2.8336	2.71496
12.1727	2.86369	2.73833
12.726	2.87632	2.74492
13.2793	2.90447	2.76629
13.8326	2.92357	2.77889
14.3859	2.926	2.77568
14.9392	2.92982	2.77377
15.4925	2.98042	2.81609
16.0458	2.98454	2.81437
16.5991	2.99017	2.81407
17.1524	3.00752	2.82474
17.7057	3.0194	2.83025
18.259	3.01226	2.81794
18.8123	3.02523	2.82441
19.3656	3.06161	2.85272
19.9189	3.05024	2.83651
20.4723	3.06809	2.84743
21.0256	3.05363	2.82835
21.5789	3.0995	2.86511
22.1322	3.08226	2.84353
22.6855	3.1031	2.85701
23.2388	3.13283	2.87859
23.7921	3.13916	2.8787
24.3454	3.12797	2.86275
24.8987	3.1343	2.86279
25.452	3.12084	2.84483
26.0053	3.11549	2.83431
26.5586	3.11465	2.82793
27.1119	3.12075	2.82785
27.6652	3.15921	2.85706
28.2185	3.12642	2.82176
28.7718	3.12879	2.81827
29.3251	3.10787	2.79385
29.8784	3.08275	2.76575
30.4317	3.08106	2.75873
30.985	3.07442	2.7473
31.5383	3.01605	2.68982
32.0916	3.00585	2.67535
32.6449	3.02422	2.68636
33.1982	3.02356	2.68047
33.7515	2.99945	2.6538
34.3049	3.00354	2.6521
34.8582	2.97285	2.61979
35.4115	2.98266	2.62321
35.9648	2.97535	2.61153
36.5181	2.93572	2.57163
37.0714	2.94533	2.57491
37.6247	2.91648	2.5446
38.178	2.89889	2.52426
38.7313	2.88571	2.50777
39.2846	2.88105	2.49873
39.8379	2.86088	2.47628
40.3912	2.86223	2.4725
40.9445	2.86013	2.46578
41.4978	2.83129	2.43615
42.0511	2.78662	2.39293
42.6044	2.74813	2.35515
43.1577	2.72676	2.3322
43.711	2.71512	2.31763
44.2643	2.69611	2.29686
44.8176	2.70097	2.29638
45.3709	2.6857	2.27882
45.9242	2.67604	2.2661
46.4775	2.66233	2.24999
47.0308	2.66637	2.24891
47.5842	2.63341	2.2167
48.1375	2.59569	2.18063
48.6908	2.5751	2.15902
49.2441	2.5563	2.13903
49.7974	2.52934	2.11226
50.3507	2.51066	2.09251
50.904	2.5066	2.08496
51.4573	2.48651	2.06409
52.0106	2.47143	2.0475
52.5639	2.4684	2.04094
53.1172	2.42459	2.00074
53.6705	2.37315	1.95439
54.2238	2.37366	1.95094
54.7771	2.32561	1.90766
55.3304	2.31017	1.8912
55.8837	2.31326	1.88997
56.437	2.26219	1.8445
56.9903	2.25592	1.83573
57.5436	2.29052	1.86017
58.0969	2.26402	1.83501
58.6502	2.21116	1.78864
59.2035	2.19358	1.77086
59.7568	2.18986	1.76433
60.3101	2.16711	1.74255
60.8635	2.1306	1.70981
61.4168	2.09478	1.6777
61.9701	2.03894	1.62973
62.5234	2.03259	1.62143
63.0767	2.05161	1.63333
63.63	2.00576	1.59364
64.1833	1.9941	1.58121
64.7366	1.94941	1.54271
65.2899	1.93723	1.53003
65.8432	1.93094	1.52203
66.3965	1.88833	1.48545
66.9498	1.8662	1.46512
67.5031	1.84695	1.4471
68.0564	1.82455	1.42671
68.6097	1.83589	1.43274
69.163	1.8199	1.41746
69.7163	1.7947	1.39508
70.2696	1.76896	1.37232
70.8229	1.73287	1.34164
71.3762	1.69383	1.30878
71.9295	1.67537	1.29196
72.4828	1.64284	1.26433
73.0361	1.63539	1.25611
73.5894	1.59417	1.22203
74.1427	1.60531	1.22814
74.6961	1.6006	1.2221
75.2494	1.5925	1.21346
75.8027	1.58093	1.20226
76.356	1.54136	1.16983
76.9093	1.50998	1.14373
77.4626	1.51439	1.14481
78.0159	1.48935	1.12365
78.5692	1.48364	1.11708
79.1225	1.48465	1.11561
79.6758	1.44981	1.08729
80.2291	1.43593	1.07474
80.7824	1.38928	1.03774
81.3357	1.39834	1.04244
81.889	1.38645	1.03153
82.4423	1.35277	1.00448
82.9956	1.33748	0.991157
83.5489	1.31173	0.970121
84.1022	1.30778	0.965285
84.6555	1.28592	0.947243
85.2088	1.26676	0.931272
85.7621	1.24265	0.911723
86.3154	1.21462	0.889383
86.8687	1.23145	0.899921
87.422	1.20815	0.881139
87.9754	1.19405	0.869116
88.5287	1.17241	0.851662
89.082	1.15827	0.839732
89.6353	1.1442	0.82787
90.1886	1.11697	0.806567
90.7419	1.11457	0.803245
91.2952	1.0914	0.784966
91.8485	1.05061	0.754132
92.4018	1.05411	0.755142
92.9551	1.04108	0.744313
93.5084	1.03491	0.738419
94.0617	1.00963	0.718946
94.615	0.982821	0.698465
95.1683	0.974824	0.691411
95.7216	0.95079	0.673035
96.2749	0.950163	0.671255
96.8282	0.922403	0.650341
97.3815	0.925856	0.651471
97.9348	0.907747	0.637455
98.4881	0.86367	0.6053
99.0414	0.85692	0.599385
99.5947	0.855289	0.597048
100.148	0.829017	0.577552
100.701	0.81921	0.569604
101.255	0.801803	0.556371
101.808	0.787637	0.545459
102.361	0.777471	0.537348
102.915	0.733971	0.506279
103.468	0.721181	0.49645
104.021	0.728541	0.500524
104.574	0.724112	0.49649
105.128	0.702534	0.480759
105.681	0.709161	0.484325
106.234	0.695296	0.473911
106.788	0.702315	0.477736
107.341	0.672203	0.456339
107.894	0.656992	0.445127
108.448	0.641364	0.433667
109.001	0.654408	0.441619
109.554	0.617666	0.415994
110.108	0.614145	0.412786
110.661	0.59842	0.40141
111.214	0.601438	0.402649
111.767	0.589492	0.393869
112.321	0.582278	0.388272
112.874	0.556801	0.370542
113.427	0.540988	0.359299
113.981	0.520377	0.344922
114.534	0.508862	0.336619
115.087	0.50572	0.333881
115.641	0.503681	0.331879
116.194	0.497635	0.327237
116.747	0.489675	0.321362
117.3	0.491152	0.32169
117.854	0.467126	0.305331
118.407	0.455522	0.297163
118.96	0.448378	0.29192
119.514	0.446567	0.29017
120.067	0.429044	0.278227
120.62	0.427479	0.276656
121.174	0.412226	0.266256
121.727	0.389474	0.251063
122.28	0.390707	0.251356
122.834	0.379977	0.24397
123.387	0.389202	0.249389
123.94	0.381958	0.244261
124.493	0.359798	0.22963
125.047	0.360542	0.229647
125.6	0.358418	0.227838
126.153	0.354225	0.224727
126.707	0.354208	0.224275
127.26	0.340927	0.215436
127.813	0.332876	0.209937
128.367	0.315127	0.198341
128.92	0.312346	0.196198
129.473	0.306783	0.192324
130.026	0.295875	0.185115
130.58	0.294821	0.184086
131.133	0.291944	0.181926
131.686	0.295531	0.183791
132.24	0.284349	0.176485
132.793	0.277085	0.171631
133.346	0.271997	0.168143
133.9	0.261948	0.161615
134.453	0.260722	0.160534
135.006	0.254604	0.156459
135.56	0.24453	0.149969
136.113	0.240976	0.147499
136.666	0.241068	0.147258
137.219	0.224835	0.137071
137.773	0.225284	0.137076
138.326	0.215753	0.131011
138.879	0.218231	0.132251
139.433	0.218558	0.132189
139.986	0.204348	0.123343
140.539	0.192521	0.115973
141.093	0.195581	0.117587
141.646	0.196211	0.117732
142.199	0.179947	0.107761
142.752	0.173852	0.103897
143.306	0.169585	0.101151
143.859	0.16711	0.099474
144.412	0.165085	0.0980714
144.966	0.162486	0.0963376
145.519	0.17119	0.101293
146.072	0.163861	0.0967657
146.626	0.155481	0.0916362
147.179	0.153032	0.0900144
147.732	0.152592	0.0895748
148.285	0.155655	0.0911862
148.839	0.144983	0.0847669
149.392	0.139751	0.0815421
149.945	0.141535	0.0824262
150.499	0.137216	0.0797518
151.052	0.135972	0.0788658
151.605	0.134452	0.0778284
152.159	0.120404	0.0695676
152.712	0.118244	0.0681833
153.265	0.119601	0.068826
153.819	0.110788	0.0636256
154.372	0.109309	0.0626553
154.925	0.112268	0.0642192
155.478	0.112279	0.064095
156.032	0.105043	0.0598428
156.585	0.100471	0.0571233
157.138	0.100203	0.0568598
157.692	0.103561	0.0586484
158.245	0.0962958	0.0544295
158.798	0.0937223	0.0528731
159.352	0.0885199	0.0498337
159.905	0.0859919	0.0483111
160.458	0.0817429	0.0458356
161.011	0.0778418	0.0435622
161.565	0.0725158	0.0405001
162.118	0.0703563	0.0392141
162.671	0.0710668	0.0395316
163.225	0.0759437	0.0421601
163.778	0.0715744	0.0396576
164.331	0.0726197	0.0401603
164.885	0.0669216	0.0369359
165.438	0.0633514	0.0348985
165.991	0.0619752	0.0340722
166.545	0.0594818	0.0326302
167.098	0.0590717	0.0323419
167.651	0.0538585	0.0294307
168.204	0.0559919	0.0305323
168.758	0.0555502	0.0302297
169.311	0.0551372	0.0299456
169.864	0.0507577	0.0275121
170.418	0.0522367	0.028259
170.971	0.0517196	0.0279252
171.524	0.0536548	0.0289109
172.078	0.053634	0.0288422
172.631	0.0504095	0.0270542
173.184	0.0507736	0.027198
173.737	0.0455484	0.024352
174.291	0.0415978	0.0221938
174.844	0.0398277	0.0212058
175.397	0.0390786	0.0207667
175.951	0.0367805	0.0195071
176.504	0.0358122	0.0189531
177.057	0.0334916	0.0176899
177.611	0.0316958	0.0167092
178.164	0.0298986	0.0157308
178.717	0.0264167	0.0138703
179.271	0.0261417	0.0136982
179.824	0.0260394	0.0136182
180.377	0.0274203	0.0143116
180.93	0.0283174	0.0147511
181.484	0.0272125	0.0141458
182.037	0.0252814	0.0131162
182.59	0.0268885	0.0139225
183.144	0.0266472	0.013771
183.697	0.0260621	0.0134407
184.25	0.0253232	0.0130345
184.804	0.0238557	0.0122541
185.357	0.0213841	0.0109618
185.91	0.0197149	0.0100873
186.463	0.0195433	0.00997889
187.017	0.017478	0.00890763
187.57	0.0162601	0.00827065
188.123	0.0182856	0.0092819
188.677	0.0164983	0.00835876
189.23	0.0155296	0.00785197
189.783	0.0140131	0.00707089
190.337	0.0154118	0.00776166
190.89	0.0159708	0.0080271
191.443	0.0129908	0.00651598
191.997	0.0122836	0.00614772
192.55	0.0117309	0.0058602
193.103	0.0118706	0.0059183
193.656	0.0104042	0.00517728
194.21	0.0102752	0.00510229
194.763	0.00923004	0.00457404
195.316	0.00987617	0.00488429
195.87	0.00880447	0.00434553
196.423	0.00904758	0.00445685
196.976	0.00739381	0.00363518
197.53	0.00728784	0.00357613
198.083	0.00783157	0.00383616
198.636	0.00777646	0.00380054
199.189	0.00579205	0.00282493
199.743	0.00591248	0.00287826
200.296	0.00538982	0.00261802
200.849	0.00530506	0.00257193
201.403	0.00529233	0.00256185
201.956	0.00546274	0.0026391
202.509	0.00619439	0.00298583
203.063	0.00537902	0.00258793
203.616	0.00543575	0.00260946
204.169	0.00489866	0.00234656
204.723	0.00484115	0.00231467
205.276	0.0046359	0.00221175
205.829	0.00437503	0.00208317
206.382	0.00362525	0.00172181
206.936	0.00357126	0.00169273
207.489	0.00433582	0.00205134
208.042	0.00453619	0.00214284
208.596	0.00447725	0.0021109
209.149	0.00385686	0.00181496
209.702	0.00465838	0.00218765
210.256	0.0046782	0.00219343
210.809	0.00462223	0.0021633
211.362	0.00722403	0.00337289
211.915	0.00654311	0.00304932
212.469	0.00687026	0.00319547
213.022	0.00723661	0.00335874
213.575	0.00545054	0.00252463
214.129	0.00429796	0.00198681
214.682	0.0039122	0.0018047
215.235	0.00313752	0.00144445
215.789	0.00268706	0.00123443
216.342	0.00256275	0.0011753
216.895	0.00243439	0.00111362
217.449	0.00214043	0.000977628
218.002	0.00220637	0.00100549
218.555	0.00217598	0.000989925
219.108	0.0027577	0.00125223
219.662	0.00236998	0.00107416
220.215	0.00244048	0.0011039
220.768	0.00200365	0.000904675
221.322	0.00159577	0.000718852
221.875	0.00180414	0.000811055
222.428	0.00178538	0.000801023
222.982	0.0021372	0.000956596
223.535	0.00187651	0.000838409
224.088	0.00330354	0.00147284
224.641	0.00385782	0.00171675
225.195	0.0027713	0.00123078
225.748	0.00141087	0.000625538
226.301	0.0014052	0.000621823
226.855	0.00197248	0.000870747
227.408	0.00137558	0.000606394
227.961	0.000841211	0.000370541
228.515	0.00049885	0.000218866
229.068	0.000489639	0.00021437
229.621	0.000477703	0.000208717
230.175	0.00052237	0.000227742
230.728	0.000498076	0.000216699
231.281	0.000500191	0.000217225
231.834	0.000571113	0.000247529
232.388	0.000825549	0.000357345
232.941	0.000583416	0.000251814
233.494	0.000602033	0.000259635
234.048	0.000633925	0.000272672
234.601	0.000601307	0.00025813
235.154	0.000689417	0.000295472
235.708	0.00074479	0.000318701
236.261	0.000705214	0.000301165
236.814	0.00056781	0.000242247
237.367	0.000537886	0.000229069
237.921	0.000681962	0.000289316
238.474	0.000566869	0.000240033
239.027	0.000521489	0.000220241
239.581	0.000509528	0.000214794
240.134	0.000515296	0.000216972
240.687	0.000599439	0.000251942
241.241	0.00068711	0.000287881
241.794	0.000663694	0.000277659
242.347	0.000776238	0.000324262
242.9	0.000601315	0.000250671
243.454	0.000439619	0.000182826
244.007	0.000443889	0.000184363
244.56	0.000467698	0.000193713
245.114	0.00075782	0.000313406
245.667	0.000407629	0.000168234
246.22	0.000399473	0.000164475
246.774	0.00041363	0.000169967
247.327	0.000400393	0.000164248
247.88	0.000454729	0.000186081
248.434	0.000486434	0.000198788
248.987	0.000711887	0.000290231
249.54	0.00051582	0.00020987
250.093	0.000397756	0.000161432
250.647	0.000313348	0.000127024
251.2	0.000324041	0.000131154
251.753	0.000337831	0.000136278
252.307	0.000333481	0.000134229
252.86	0.00033053	0.000132922
253.413	0.000321229	0.000129021
253.967	0.000293734	0.00011773
254.52	0.000299054	0.000119533
255.073	0.00035178	0.000140279
255.626	0.000427842	0.000170298
256.18	0.000415144	0.000164937
256.733	0.00056329	0.00022324
257.286	0.000534394	0.000211439
257.84	0.000126881	5.00825e-05
258.393	0.00012808	5.05363e-05
258.946	0.000130926	5.1586e-05
259.5	0.000251696	9.88475e-05
260.053	0.00014872	5.82547e-05
260.606	0.000301239	0.000117768
261.16	0.000215992	8.42846e-05
261.713	0.000285864	0.000111247
262.266	0.000234817	9.12165e-05
262.819	0.000409564	0.00015869
263.373	0.000473549	0.000183247
263.926	0.000432472	0.000167148
264.479	0.000416608	0.000160756
265.033	0.000469145	0.000180628
265.586	0.000432405	0.00016619
266.139	0.000359219	0.000137626
266.693	0.000282953	0.000108291
267.246	0.000256005	9.77442e-05
267.799	0.000124943	4.76205e-05
268.352	9.89321e-05	3.76171e-05
268.906	9.66066e-05	3.66535e-05
269.459	8.7844e-05	3.32644e-05
270.012	8.37117e-05	3.16583e-05
270.566	7.69303e-05	2.90006e-05
271.119	7.26826e-05	2.73834e-05
271.672	7.03795e-05	2.6422e-05
272.226	6.64213e-05	2.48966e-05
272.779	6.41719e-05	2.40445e-05
273.332	5.63393e-05	2.10568e-05
273.886	4.85023e-05	1.80601e-05
274.439	4.83524e-05	1.79903e-05
274.992	5.00271e-05	1.85921e-05
275.545	1.82692e-08	6.77868e-09
276.099	0.00243846	0.00085993
